Folder: Design-3-WattPiti/JupyterLongueurDonde/Transmission Plastiques

Note: README.md
# Design-3-WattPiti
Repo pour le cours de design3 à l'hiver 2025 par l'équipe01 WattPiti

File: TransmissionsPlastiques.csv
Baseline 100%T,,Baseline 0%T,,sample1,,Plexyglass,,Petri,,rouge,,jaune,,bleu,,lamelle_verre,,
Wavelength (nm),%T,Wavelength (nm),%T,Wavelength (nm),%T,Wavelength (nm),%T,Wavelength (nm),%T,Wavelength (nm),%T,Wavelength (nm),%T,Wavelength (nm),%T,Wavelength (nm),%T,
2600,436780,2600,0.00131438,2600,0.00156602,2600,0.00403995,2600,0.00781518,2600,122.824,2600,111.117,2600,110.894,2600,0.0194969,
2571,416703.125,2571,0.00176348,2571,0.00115738,2571,0.00349115,2571,0.00814944,2571,116.882,2571,107.955,2571,110.025,2571,0.0207679,
2542,535237,2542,0.00467493,2542,0.000247457,2542,0.00123843,2542,0.00543982,2542,114.385,2542,0.0149911,2542,80.0853,2542,0.0162075,
2513,449846,2513,0.00269684,2513,0.000246024,2513,0.00138855,2513,0.00592181,2513,0.0170172,2513,0.0167393,2513,0.0173214,2513,0.0192041,
2484,477081.5,2484,0.00221145,2484,0.000136344,2484,0.00096415,2484,0.000849644,2484,0.0154161,2484,0.0160746,2484,0.01516,2484,0.0178562,
2455,96.6944,2455,0.00099931,2455,0.251677,2455,2.41854,2455,5.10653,2455,73.7739,2455,75.351,2455,74.6876,2455,87.0262,
2426,96.7215,2426,0.000235369,2426,0.0920949,2426,1.20449,2426,22.8052,2426,73.8539,2426,74.2706,2426,77.0284,2426,88.9892,
2397,96.712,2397,0.00185653,2397,0.0219407,2397,0.482188,2397,28.0271,2397,67.5669,2397,71.5459,2397,70.2924,2397,94.6164,
2368,96.7434,2368,0.00275245,2368,0.0144199,2368,0.469015,2368,18.1041,2368,63.9858,2368,68.6024,2368,65.6919,2368,94.603,
2339,96.7338,2339,0.00212531,2339,0.135681,2339,1.64898,2339,25.8371,2339,67.6672,2339,70.1683,2339,68.2988,2339,87.1416,
2310,96.6744,2310,0.00149512,2310,0.0922367,2310,1.16752,2310,26.3372,2310,58.7478,2310,60.7392,2310,59.8619,2310,93.6856,
2281,96.6263,2281,0.000241135,2281,0.000605879,2281,0.0316331,2281,48.2668,2281,76.3562,2281,76.1868,2281,75.433,2281,91.0331,
2252,96.6046,2252,0.00338633,2252,-0.000699767,2252,-0.00084086,2252,62.775,2252,84.2851,2252,83.6615,2252,83.1966,2252,91.9681,
2223,96.6918,2223,0.000199693,2223,0.314064,2223,2.70067,2223,61.1214,2223,88.6753,2223,85.8945,2223,86.26,2223,89.5483,
2194,96.7177,2194,0.00227706,2194,14.8872,2194,30.0044,2194,46.449,2194,88.42,2194,86.2906,2194,88.9394,2194,95.3729,
2165,96.6614,2165,0.00153785,2165,24.9508,2165,41.3413,2165,20.2919,2165,89.2064,2165,86.864,2165,89.8098,2165,89.5338,
2136,96.6793,2136,-0.000466248,2136,12.8983,2136,28.2721,2136,44.5064,2136,88.1953,2136,88.993,2136,87.098,2136,88.1636,
2107,96.7012,2107,0.00436867,2107,24.726,2107,42.3014,2107,76.2453,2107,89.5868,2107,90.5078,2107,87.062,2107,90.7881,
2078,96.699,2078,-0.00049271,2078,51.7805,2078,65.3601,2078,79.4648,2078,89.9541,2078,87.7369,2078,90.0074,2078,92.5698,
2049,96.7349,2049,0.000949115,2049,57.674,2049,69.4629,2049,80.7173,2049,89.3645,2049,88.1392,2049,86.3819,2049,92.2837,
2020,96.7882,2020,0.000616873,2020,61.5797,2020,72.0583,2020,81.024,2020,89.0644,2020,89.8506,2020,89.8487,2020,90.1433,
1991,96.4834,1991,0.00341941,1991,62.6715,1991,72.8606,1991,81.187,1991,89.1424,1991,87.6037,1991,87.6792,1991,87.9697,
1962,96.5403,1962,-0.000534945,1962,57.5832,1962,68.6632,1962,80.6983,1962,89.3472,1962,88.9712,1962,86.8054,1962,91.9467,
1933,96.5836,1933,0.00157416,1933,54.3326,1933,66.2527,1933,80.282,1933,89.8516,1933,89.4783,1933,88.7334,1933,93.6784,
1904,96.6517,1904,5.27893e-05,1904,36.9593,1904,50.2792,1904,79.1024,1904,88.9946,1904,87.1066,1904,89.2935,1904,89.1602,
1875,96.7156,1875,0.00179508,1875,60.5551,1875,70.6351,1875,78.0708,1875,88.1204,1875,86.9861,1875,89.3287,1875,92.5219,
1846,96.7383,1846,0.00055045,1846,60.9359,1846,71.0688,1846,76.5376,1846,89.0942,1846,87.1071,1846,88.7253,1846,94.3652,
1817,96.7854,1817,-0.00341718,1817,61.878,1817,71.6282,1817,74.7338,1817,87.6117,1817,87.0731,1817,87.9527,1817,90.6218,
1788,96.8299,1788,0.00123752,1788,48.3639,1788,61.2467,1788,73.6962,1788,86.5171,1788,85.7511,1788,85.2356,1788,89.4062,
1759,96.7647,1759,0.00154115,1759,44.7157,1759,58.5524,1759,68.0649,1759,85.7806,1759,84.6656,1759,84.9629,1759,90.6463,
1730,96.704,1730,0.00172071,1730,25.564,1730,41.3156,1730,66.1247,1730,85.0324,1730,85.8497,1730,84.5688,1730,94.3287,
1701,96.6537,1701,0.000505827,1701,20.8517,1701,36.4824,1701,52.546,1701,85.2589,1701,84.7902,1701,84.9031,1701,91.3811,
1672,96.5004,1672,0.00154085,1672,19.7723,1672,35.6062,1672,34.4067,1672,89.0833,1672,89.6859,1672,87.3479,1672,91.4223,
1643,96.3728,1643,-0.001289,1643,69.624,1643,77.7551,1643,73.778,1643,90.7107,1643,88.4152,1643,88.4455,1643,88.9291,
1614,96.2793,1614,0.00227501,1614,79.4684,1614,84.0745,1614,86.8404,1614,89.8046,1614,88.9915,1614,88.6682,1614,92.2123,
1585,96.1411,1585,0.00169491,1585,84.7355,1585,87.5844,1585,88.7541,1585,90.3999,1585,89.3995,1585,88.134,1585,92.3177,
1556,96.0136,1556,0.00298487,1556,86.9585,1556,89.0633,1556,89.1779,1556,91.0006,1556,88.9933,1556,88.6713,1556,89.3321,
1527,95.9173,1527,0.000485716,1527,87.7791,1527,89.4937,1527,88.7962,1527,90.7719,1527,88.7822,1527,89.5736,1527,91.6224,
1498,95.9229,1498,0.00313003,1498,86.4703,1498,88.6012,1498,88.3169,1498,89.5598,1498,90.044,1498,88.82,1498,89.8449,
1469,95.9007,1469,-4.43209e-05,1469,83.3441,1469,86.665,1469,87.6969,1469,90.6351,1469,88.624,1469,87.9744,1469,93.1886,
1440,95.9647,1440,0.00143821,1440,74.6952,1440,80.9371,1440,86.679,1440,89.3061,1440,88.723,1440,87.7579,1440,92.4918,
1411,96.0099,1411,0.00028844,1411,73.32,1411,79.7008,1411,86.0801,1411,89.1488,1411,88.705,1411,88.1353,1411,88.8858,
1382,96.116,1382,-0.00034171,1382,68.1702,1382,76.1657,1382,87.3958,1382,89.9443,1382,88.5491,1382,88.7593,1382,93.6433,
1353,96.2076,1353,0.00251194,1353,71.3849,1353,78.5619,1353,88.7954,1353,90.1216,1353,89.4579,1353,88.7995,1353,92.6825,
1324,96.1882,1324,0.00192926,1324,89.1019,1324,90.1882,1324,89.1934,1324,90.6002,1324,88.912,1324,88.4425,1324,93.5209,
1295,96.0598,1295,0.00208569,1295,90.5343,1295,91.1855,1295,89.3821,1295,90.5168,1295,89.1241,1295,88.8133,1295,89.5667,
1266,95.932,1266,0.00136571,1266,90.6338,1266,91.1972,1266,89.3274,1266,90.0086,1266,88.8706,1266,88.4969,1266,91.7409,
1237,95.6628,1237,-0.000215037,1237,89.8866,1237,90.6621,1237,88.6962,1237,90.0972,1237,89.2036,1237,88.72,1237,90.1468,
1208,95.3057,1208,0.00432849,1208,85.8387,1208,87.9391,1208,85.9291,1208,89.5054,1208,88.4529,1208,88.1509,1208,92.8244,
1179,94.9472,1179,0.000613648,1179,71.4287,1179,78.1804,1179,88.2184,1179,89.1686,1179,88.4113,1179,87.6429,1179,92.4777,
1150,94.5919,1150,0.00394636,1150,79.0128,1150,83.6629,1150,81.284,1150,89.5591,1150,89.0446,1150,88.1491,1150,90.8668,
1121,94.3443,1121,0.00345862,1121,88.0859,1121,89.4962,1121,88.7936,1121,90.0525,1121,89.1505,1121,88.1064,1121,91.5579,
1092,94.2455,1092,0.00250421,1092,91.51,1092,91.6184,1092,89.8502,1092,89.8777,1092,89.0552,1092,88.2031,1092,90.8637,
1063,94.2228,1063,0.00266101,1063,91.4859,1063,91.5731,1063,89.8179,1063,89.9328,1063,88.9971,1063,88.0819,1063,91.0204,
1034,94.1898,1034,0.00235176,1034,90.8826,1034,91.1838,1034,89.842,1034,89.8668,1034,88.9689,1034,87.9913,1034,91.1457,
1005,94.0967,1005,-0.000543819,1005,90.4707,1005,90.9136,1005,89.9679,1005,89.9079,1005,88.8165,1005,87.9219,1005,91.171,
976,93.7881,976,0.0032267,976,91.4857,976,91.5348,976,90.1112,976,89.807,976,88.8197,976,87.8197,976,91.3732,
947,93.3843,947,0.00213592,947,91.9858,947,91.824,947,90.1976,947,89.7559,947,88.7569,947,87.7486,947,91.4585,
918,93.1429,918,0.00280015,918,91.3678,918,91.3983,918,90.1012,918,89.6519,918,88.629,918,87.5568,918,91.4964,
889,93.2603,889,0.000490148,889,90.4025,889,90.789,889,90.1743,889,89.638,889,88.5885,889,87.4277,889,91.5229,
860,93.7992,860,-0.000748204,860,91.8671,860,91.6656,860,90.1109,860,89.5953,860,88.4881,860,87.2409,860,91.5135,
831,94.4939,831,0.000905082,831,92.1153,831,91.8037,831,90.1538,831,89.5148,831,88.4144,831,86.914,831,91.5254,
802,95.0247,802,0.00286323,802,92.0549,802,91.7582,802,90.092,802,89.3888,802,88.3026,802,86.2736,802,91.489,
773,95.171,773,0.00162831,773,92.0898,773,91.7674,773,90.1672,773,89.2455,773,88.1558,773,84.6716,773,91.4357,
744,95.1659,744,0.00200291,744,91.9591,744,91.6778,744,90.3088,744,89.0437,744,88.0306,744,79.8275,744,91.3969,
715,95.381,715,0.00147838,715,91.9395,715,91.6178,715,90.21,715,88.729,715,87.8391,715,73.1704,715,91.3242,
686,100.942,686,-0.00154496,686,92.283,686,91.805,686,89.9723,686,88.6846,686,88.2267,686,52.8479,686,91.8059,
657,102.122,657,-0.00164562,657,92.2586,657,91.7535,657,89.80513,657,87.8519,657,87.9604,657,63.5664,657,91.7676,
628,103.143,628,-0.00188787,628,92.1896,628,91.7285,628,89.5871,628,84.3386,628,87.63,628,56.2584,628,91.7402,
599,103.486,599,-0.00188614,599,92.1406,599,91.7024,599,89.3574,599,52.834,599,87.0381,599,51.3577,599,91.6884,
570,103.654,570,-0.00233434,570,92.1057,570,91.6153,570,89.3572,570,2.39535,570,85.7795,570,57.023,570,91.6308,
541,104.484,541,0.00367678,541,92.0369,541,91.4831,541,89.3586,541,0.188442,541,80.5801,541,72.6077,541,91.5571,
512,105.472,512,0.00349859,512,92.0027,512,91.4287,512,89.3956,512,0.14908,512,47.5415,512,77.3902,512,91.4906,
483,106.499,483,0.00345926,483,91.9363,483,91.3268,483,89.3391,483,0.923216,483,16.0965,483,75.477,483,91.4028,
454,107.68,454,0.00349205,454,91.8054,454,91.1826,454,89.1445,454,3.5764,454,3.28701,454,69.7936,454,91.2926,
425,109.168,425,0.00328585,425,91.5863,425,91.0121,425,88.8179,425,3.7347,425,3.32894,425,57.6406,425,91.1783,
396,110.596,396,0.00325891,396,86.108,396,89.9423,396,88.21,396,2.93052,396,9.45651,396,36.7265,396,91.0187,
367,111.38,367,0.00352327,367,0.171711,367,33.7879,367,73.2584,367,0.0856503,367,14.3341,367,12.3245,367,90.6762,
338,107.993,338,0.00335219,338,0.000254853,338,7.51341,338,64.9601,338,0.00738065,338,7.41451,338,2.2858,338,87.614,
309,108.834,309,0.00352951,309,0.00165098,309,0.158119,309,54.6595,309,0.0328814,309,0.811979,309,0.452722,309,36.6345,
280,109.706,280,0.00375169,280,0.115773,280,4.64697,280,0.10484,280,0.0542803,280,0.0343703,280,0.0114497,280,-0.00305702,
251,109.768,251,0.00323016,251,0.000126547,251,0.0228006,251,-0.00126774,251,0.000303594,251,0.000773283,251,0.000684838,251,-0.00212971,
222,107.427,222,0.00331375,222,6.03221e-05,222,-6.10671e-05,222,-0.00244861,222,-0.000122788,222,9.10274e-06,222,7.31914e-05,222,-0.00193634,
200,104.922,200,0.00315134,200,-2.40018e-05,200,0.000336214,200,-0.00288663,200,0.000128848,200,0.000128492,200,0.00038704,200,0.00055494,

Baseline 100%T,
Baseline 100%T
Collection Time: 14/03/2025 10:26:13 AM
Operator Name  :
Scan Version 6.0.0.1551
Parameter List :
Instrument  Cary 5000
Instrument Version  2.23
Method Log     :
Method Name    :
Date/Time stamp: 14/03/2025 10:17:44 AM
Method Modifications:
X Start nm Changed: 14/03/2025 10:20:01 AM, Old:800.000, New:2600.000
UVVIS Scan Rate nm Changed: 14/03/2025 10:20:01 AM, Old:  602.007, New:  600.000
NIR Scan Rate nm Changed: 14/03/2025 10:20:01 AM, Old:  602.007, New:  600.000
UVVIS Interval EV Changed: 14/03/2025 10:20:01 AM, Old:0.00015, New:0.00015
NIR Interval EV Changed: 14/03/2025 10:20:01 AM, Old:0.00015, New:0.00015
Common Interval EV Changed: 14/03/2025 10:20:01 AM, Old:0.00015, New:0.00015
Y mode Changed: 14/03/2025 10:20:01 AM, Old:Abs, New:%T
Y min Changed: 14/03/2025 10:20:01 AM, Old:     0.00, New:    -5.00
Y max Changed: 14/03/2025 10:20:01 AM, Old:     1.00, New:   105.00
Detector changeover Changed: 14/03/2025 10:20:01 AM, Old:   800.00, New:   700.00
Grating changeover Changed: 14/03/2025 10:20:01 AM, Old:   800.00, New:   700.00
Baseline Correction Changed: 14/03/2025 10:20:01 AM, Old:0, New:2
Sipper Type Changed: 14/03/2025 10:20:01 AM, Old:Internal RSA, New:External sipper
End Method Modifications
<Current Wavelength> , 200.000
<SBW (nm)> , 2.00
<Energy> , 39.81
<Slit Height> , Full

Baseline 0%T,
Baseline 0%T
Collection Time: 14/03/2025 10:31:23 AM
Operator Name  :
Scan Version 6.0.0.1551
Parameter List :
Instrument  Cary 5000
Instrument Version  2.23
Method Log     :
Method Name    :
Date/Time stamp: 14/03/2025 10:17:44 AM
Method Modifications:
X Start nm Changed: 14/03/2025 10:20:01 AM, Old:800.000, New:2600.000
UVVIS Scan Rate nm Changed: 14/03/2025 10:20:01 AM, Old:  602.007, New:  600.000
NIR Scan Rate nm Changed: 14/03/2025 10:20:01 AM, Old:  602.007, New:  600.000
UVVIS Interval EV Changed: 14/03/2025 10:20:01 AM, Old:0.00015, New:0.00015
NIR Interval EV Changed: 14/03/2025 10:20:01 AM, Old:0.00015, New:0.00015
Common Interval EV Changed: 14/03/2025 10:20:01 AM, Old:0.00015, New:0.00015
Y mode Changed: 14/03/2025 10:20:01 AM, Old:Abs, New:%T
Y min Changed: 14/03/2025 10:20:01 AM, Old:     0.00, New:    -5.00
Y max Changed: 14/03/2025 10:20:01 AM, Old:     1.00, New:   105.00
Detector changeover Changed: 14/03/2025 10:20:01 AM, Old:   800.00, New:   700.00
Grating changeover Changed: 14/03/2025 10:20:01 AM, Old:   800.00, New:   700.00
Baseline Correction Changed: 14/03/2025 10:20:01 AM, Old:0, New:2
Sipper Type Changed: 14/03/2025 10:20:01 AM, Old:Internal RSA, New:External sipper
End Method Modifications
<Current Wavelength> , 200.000
<SBW (nm)> , 2.00
<Energy> , 39.81
<Slit Height> , Full

sample1,
sample1
Collection Time: 14/03/2025 10:42:49 AM
Operator Name  :
Scan Version 6.0.0.1551
Parameter List :
Instrument  Cary 5000
Instrument Version  2.23
Method Log     :
Method Name    :
Date/Time stamp: 14/03/2025 10:17:44 AM
Method Modifications:
X Start nm Changed: 14/03/2025 10:20:01 AM, Old:800.000, New:2600.000
UVVIS Scan Rate nm Changed: 14/03/2025 10:20:01 AM, Old:  602.007, New:  600.000
NIR Scan Rate nm Changed: 14/03/2025 10:20:01 AM, Old:  602.007, New:  600.000
UVVIS Interval EV Changed: 14/03/2025 10:20:01 AM, Old:0.00015, New:0.00015
NIR Interval EV Changed: 14/03/2025 10:20:01 AM, Old:0.00015, New:0.00015
Common Interval EV Changed: 14/03/2025 10:20:01 AM, Old:0.00015, New:0.00015
Y mode Changed: 14/03/2025 10:20:01 AM, Old:Abs, New:%T
Y min Changed: 14/03/2025 10:20:01 AM, Old:     0.00, New:    -5.00
Y max Changed: 14/03/2025 10:20:01 AM, Old:     1.00, New:   105.00
Detector changeover Changed: 14/03/2025 10:20:01 AM, Old:   800.00, New:   700.00
Grating changeover Changed: 14/03/2025 10:20:01 AM, Old:   800.00, New:   700.00
Baseline Correction Changed: 14/03/2025 10:20:01 AM, Old:0, New:2
Sipper Type Changed: 14/03/2025 10:20:01 AM, Old:Internal RSA, New:External sipper
End Method Modifications
<Current Wavelength> , 199.000
<SBW (nm)> , 2.00
<Energy> , 39.81
<Slit Height> , Full

Plexyglass,
Plexyglass
Collection Time: 14/03/2025 10:48:39 AM
Operator Name  :
Scan Version 6.0.0.1551
Parameter List :
Instrument  Cary 5000
Instrument Version  2.23
Method Log     :
Method Name    :
Date/Time stamp: 14/03/2025 10:17:44 AM
Method Modifications:
X Start nm Changed: 14/03/2025 10:20:01 AM, Old:800.000, New:2600.000
UVVIS Scan Rate nm Changed: 14/03/2025 10:20:01 AM, Old:  602.007, New:  600.000
NIR Scan Rate nm Changed: 14/03/2025 10:20:01 AM, Old:  602.007, New:  600.000
UVVIS Interval EV Changed: 14/03/2025 10:20:01 AM, Old:0.00015, New:0.00015
NIR Interval EV Changed: 14/03/2025 10:20:01 AM, Old:0.00015, New:0.00015
Common Interval EV Changed: 14/03/2025 10:20:01 AM, Old:0.00015, New:0.00015
Y mode Changed: 14/03/2025 10:20:01 AM, Old:Abs, New:%T
Y min Changed: 14/03/2025 10:20:01 AM, Old:     0.00, New:    -5.00
Y max Changed: 14/03/2025 10:20:01 AM, Old:     1.00, New:   105.00
Detector changeover Changed: 14/03/2025 10:20:01 AM, Old:   800.00, New:   700.00
Grating changeover Changed: 14/03/2025 10:20:01 AM, Old:   800.00, New:   700.00
Baseline Correction Changed: 14/03/2025 10:20:01 AM, Old:0, New:2
Sipper Type Changed: 14/03/2025 10:20:01 AM, Old:Internal RSA, New:External sipper
End Method Modifications
<Current Wavelength> , 200.000
<SBW (nm)> , 2.00
<Energy> , 39.81
<Slit Height> , Full

Petri,
Petri
Collection Time: 14/03/2025 10:55:34 AM
Operator Name  :
Scan Version 6.0.0.1551
Parameter List :
Instrument  Cary 5000
Instrument Version  2.23
Method Log     :
Method Name    :
Date/Time stamp: 14/03/2025 10:17:44 AM
Method Modifications:
X Start nm Changed: 14/03/2025 10:20:01 AM, Old:800.000, New:2600.000
UVVIS Scan Rate nm Changed: 14/03/2025 10:20:01 AM, Old:  602.007, New:  600.000
NIR Scan Rate nm Changed: 14/03/2025 10:20:01 AM, Old:  602.007, New:  600.000
UVVIS Interval EV Changed: 14/03/2025 10:20:01 AM, Old:0.00015, New:0.00015
NIR Interval EV Changed: 14/03/2025 10:20:01 AM, Old:0.00015, New:0.00015
Common Interval EV Changed: 14/03/2025 10:20:01 AM, Old:0.00015, New:0.00015
Y mode Changed: 14/03/2025 10:20:01 AM, Old:Abs, New:%T
Y min Changed: 14/03/2025 10:20:01 AM, Old:     0.00, New:    -5.00
Y max Changed: 14/03/2025 10:20:01 AM, Old:     1.00, New:   105.00
Detector changeover Changed: 14/03/2025 10:20:01 AM, Old:   800.00, New:   700.00
Grating changeover Changed: 14/03/2025 10:20:01 AM, Old:   800.00, New:   700.00
Baseline Correction Changed: 14/03/2025 10:20:01 AM, Old:0, New:2
Sipper Type Changed: 14/03/2025 10:20:01 AM, Old:Internal RSA, New:External sipper
End Method Modifications
<Current Wavelength> , 200.000
<SBW (nm)> , 2.00
<Energy> , 39.81
<Slit Height> , Full

rouge,
rouge
Collection Time: 14/03/2025 11:01:13 AM
Operator Name  :
Scan Version 6.0.0.1551
Parameter List :
Instrument  Cary 5000
Instrument Version  2.23
Method Log     :
Method Name    :
Date/Time stamp: 14/03/2025 10:17:44 AM
Method Modifications:
X Start nm Changed: 14/03/2025 10:20:01 AM, Old:800.000, New:2600.000
UVVIS Scan Rate nm Changed: 14/03/2025 10:20:01 AM, Old:  602.007, New:  600.000
NIR Scan Rate nm Changed: 14/03/2025 10:20:01 AM, Old:  602.007, New:  600.000
UVVIS Interval EV Changed: 14/03/2025 10:20:01 AM, Old:0.00015, New:0.00015
NIR Interval EV Changed: 14/03/2025 10:20:01 AM, Old:0.00015, New:0.00015
Common Interval EV Changed: 14/03/2025 10:20:01 AM, Old:0.00015, New:0.00015
Y mode Changed: 14/03/2025 10:20:01 AM, Old:Abs, New:%T
Y min Changed: 14/03/2025 10:20:01 AM, Old:     0.00, New:    -5.00
Y max Changed: 14/03/2025 10:20:01 AM, Old:     1.00, New:   105.00
Detector changeover Changed: 14/03/2025 10:20:01 AM, Old:   800.00, New:   700.00
Grating changeover Changed: 14/03/2025 10:20:01 AM, Old:   800.00, New:   700.00
Baseline Correction Changed: 14/03/2025 10:20:01 AM, Old:0, New:2
Sipper Type Changed: 14/03/2025 10:20:01 AM, Old:Internal RSA, New:External sipper
End Method Modifications
<Current Wavelength> , 200.000
<SBW (nm)> , 2.00
<Energy> , 39.81
<Slit Height> , Full

jaune,
jaune
Collection Time: 14/03/2025 11:06:57 AM
Operator Name  :
Scan Version 6.0.0.1551
Parameter List :
Instrument  Cary 5000
Instrument Version  2.23
Method Log     :
Method Name    :
Date/Time stamp: 14/03/2025 10:17:44 AM
Method Modifications:
X Start nm Changed: 14/03/2025 10:20:01 AM, Old:800.000, New:2600.000
UVVIS Scan Rate nm Changed: 14/03/2025 10:20:01 AM, Old:  602.007, New:  600.000
NIR Scan Rate nm Changed: 14/03/2025 10:20:01 AM, Old:  602.007, New:  600.000
UVVIS Interval EV Changed: 14/03/2025 10:20:01 AM, Old:0.00015, New:0.00015
NIR Interval EV Changed: 14/03/2025 10:20:01 AM, Old:0.00015, New:0.00015
Common Interval EV Changed: 14/03/2025 10:20:01 AM, Old:0.00015, New:0.00015
Y mode Changed: 14/03/2025 10:20:01 AM, Old:Abs, New:%T
Y min Changed: 14/03/2025 10:20:01 AM, Old:     0.00, New:    -5.00
Y max Changed: 14/03/2025 10:20:01 AM, Old:     1.00, New:   105.00
Detector changeover Changed: 14/03/2025 10:20:01 AM, Old:   800.00, New:   700.00
Grating changeover Changed: 14/03/2025 10:20:01 AM, Old:   800.00, New:   700.00
Baseline Correction Changed: 14/03/2025 10:20:01 AM, Old:0, New:2
Sipper Type Changed: 14/03/2025 10:20:01 AM, Old:Internal RSA, New:External sipper
End Method Modifications
<Current Wavelength> , 200.000
<SBW (nm)> , 2.00
<Energy> , 39.81
<Slit Height> , Full

bleu,
bleu
Collection Time: 14/03/2025 11:12:41 AM
Operator Name  :
Scan Version 6.0.0.1551
Parameter List :
Instrument  Cary 5000
Instrument Version  2.23
Method Log     :
Method Name    :
Date/Time stamp: 14/03/2025 10:17:44 AM
Method Modifications:
X Start nm Changed: 14/03/2025 10:20:01 AM, Old:800.000, New:2600.000
UVVIS Scan Rate nm Changed: 14/03/2025 10:20:01 AM, Old:  602.007, New:  600.000
NIR Scan Rate nm Changed: 14/03/2025 10:20:01 AM, Old:  602.007, New:  600.000
UVVIS Interval EV Changed: 14/03/2025 10:20:01 AM, Old:0.00015, New:0.00015
NIR Interval EV Changed: 14/03/2025 10:20:01 AM, Old:0.00015, New:0.00015
Common Interval EV Changed: 14/03/2025 10:20:01 AM, Old:0.00015, New:0.00015
Y mode Changed: 14/03/2025 10:20:01 AM, Old:Abs, New:%T
Y min Changed: 14/03/2025 10:20:01 AM, Old:     0.00, New:    -5.00
Y max Changed: 14/03/2025 10:20:01 AM, Old:     1.00, New:   105.00
Detector changeover Changed: 14/03/2025 10:20:01 AM, Old:   800.00, New:   700.00
Grating changeover Changed: 14/03/2025 10:20:01 AM, Old:   800.00, New:   700.00
Baseline Correction Changed: 14/03/2025 10:20:01 AM, Old:0, New:2
Sipper Type Changed: 14/03/2025 10:20:01 AM, Old:Internal RSA, New:External sipper
End Method Modifications
<Current Wavelength> , 200.000
<SBW (nm)> , 2.00
<Energy> , 39.81
<Slit Height> , Full

lamelle_verre,
lamelle_verre
Collection Time: 14/03/2025 11:18:37 AM
Operator Name  :
Scan Version 6.0.0.1551
Parameter List :
Instrument  Cary 5000
Instrument Version  2.23
Method Log     :
Method Name    :
Date/Time stamp: 14/03/2025 10:17:44 AM
Method Modifications:
X Start nm Changed: 14/03/2025 10:20:01 AM, Old:800.000, New:2600.000
UVVIS Scan Rate nm Changed: 14/03/2025 10:20:01 AM, Old:  602.007, New:  600.000
NIR Scan Rate nm Changed: 14/03/2025 10:20:01 AM, Old:  602.007, New:  600.000
UVVIS Interval EV Changed: 14/03/2025 10:20:01 AM, Old:0.00015, New:0.00015
NIR Interval EV Changed: 14/03/2025 10:20:01 AM, Old:0.00015, New:0.00015
Common Interval EV Changed: 14/03/2025 10:20:01 AM, Old:0.00015, New:0.00015
Y mode Changed: 14/03/2025 10:20:01 AM, Old:Abs, New:%T
Y min Changed: 14/03/2025 10:20:01 AM, Old:     0.00, New:    -5.00
Y max Changed: 14/03/2025 10:20:01 AM, Old:     1.00, New:   105.00
Detector changeover Changed: 14/03/2025 10:20:01 AM, Old:   800.00, New:   700.00
Grating changeover Changed: 14/03/2025 10:20:01 AM, Old:   800.00, New:   700.00
Baseline Correction Changed: 14/03/2025 10:20:01 AM, Old:0, New:2
Sipper Type Changed: 14/03/2025 10:20:01 AM, Old:Internal RSA, New:External sipper
End Method Modifications
<Current Wavelength> , 200.000
<SBW (nm)> , 2.00
<Energy> , 39.81
<Slit Height> , Full